Folder: EELS_Hyperspy

Note: README.md
# EELS_Hyperspy
Contains some of the hyperspy codes for EELS analysis.

File: eS.msa
#FORMAT      : EMSA/MAS Spectral Data File
#VERSION     : 1.0
#DATE        :
#TIME        :
#OWNER       :
#NPOINTS     : 2048
#NCOLUMNS    : 1
#DATATYPE    : Y
#SIGNALTYPE  : EELS
#XPERCHAN    : 1.0
#OFFSET      : -0.0
#XLABEL      : x
#XUNITS      :
#COMMENT     : File created by HyperSpy version 1.3
#TITLE       : sum25_GaNseries1 1024 channels extrapolated
#SPECTRUM    : Spectral Data Starts Here
0.000000,
62.9363,
89.4238,
122.476,
183.677,
294.599,
560.012,
1308.87,
4178.76,
14947.9,
38923.7,
42841.3,
15509.3,
3150.36,
1032.9,
514.03,
316.913,
221,
172.872,
143.184,
130.315,
126.947,
120.501,
102.191,
110.395,
109.078,
109.748,
103.203,
109.088,
103.145,
115.223,
127.16,
130.32,
138.872,
138.333,
147.152,
151.928,
148.021,
159.091,
162.177,
152.837,
158.959,
155.924,
164.459,
173.556,
169.186,
183.863,
188.684,
196.62,
203.834,
225.756,
242.263,
266.446,
273.272,
292.5,
302.944,
319.615,
335.399,
357.11,
377.797,
405.214,
437.095,
449.464,
480.997,
500.225,
498.89,
507.08,
474.906,
453.098,
412.028,
387.129,
344.578,
330.434,
306.111,
311.361,
319.027,
334.987,
340.992,
341.046,
327.288,
311.528,
296.597,
274.744,
268.884,
253.783,
260.149,
259.588,
251.58,
251.539,
253.314,
239.978,
245.814,
248.127,
243.122,
237.205,
230.839,
216.8,
214.732,
211.215,
206.381,
201.828,
191.137,
188.88,
188.855,
178.223,
184.121,
168.206,
163.822,
167.082,
152.737,
157.31,
162.644,
162.706,
146.39,
142.329,
142.916,
145.546,
136.779,
135.907,
144.121,
142.211,
135.66,
135.616,
142.006,
133.058,
131.493,
126.939,
130.994,
124.964,
130.653,
127.772,
119.757,
132.225,
135.705,
130.242,
127.226,
133.301,
133.079,
126.118,
127.327,
122.35,
117.219,
118.579,
107.793,
124.697,
114.887,
118.315,
110.599,
107.571,
104.646,
101.819,
99.087,
96.4452,
93.8905,
91.4194,
89.0287,
86.7154,
84.4763,
82.3087,
80.2099,
78.1773,
76.2084,
74.3008,
72.4522,
70.6606,
68.9237,
67.2396,
65.6065,
64.0223,
62.4855,
60.9944,
59.5472,
58.1426,
56.7789,
55.4548,
54.1689,
52.9199,
51.7065,
50.5275,
49.3818,
48.2683,
47.1858,
46.1334,
45.11,
44.1147,
43.1466,
42.2047,
41.2884,
40.3966,
39.5287,
38.6839,
37.8614,
37.0605,
36.2807,
35.5211,
34.7813,
34.0605,
33.3582,
32.6738,
32.0068,
31.3567,
30.7229,
30.105,
29.5024,
28.9148,
28.3417,
27.7827,
27.2373,
26.7052,
26.1859,
25.6792,
25.1845,
24.7017,
24.2304,
23.7702,
23.3208,
22.8819,
22.4533,
22.0346,
21.6256,
21.226,
20.8355,
20.4539,
20.081,
19.7165,
19.3602,
19.0119,
18.6714,
18.3384,
18.0127,
17.6943,
17.3828,
17.078,
16.78,
16.4883,
16.2029,
15.9237,
15.6504,
15.383,
15.1211,
14.8649,
14.614,
14.3683,
14.1278,
13.8922,
13.6615,
13.4356,
13.2143,
12.9975,
12.7851,
12.5771,
12.3732,
12.1734,
11.9776,
11.7857,
11.5976,
11.4133,
11.2326,
11.0554,
10.8817,
10.7114,
10.5443,
10.3805,
10.2199,
10.0623,
9.907784,
9.756178,
9.607447,
9.461527,
9.318354,
9.177868,
9.040006,
8.904712,
8.771929,
8.641600,
8.513671,
8.388091,
8.264807,
8.143770,
8.024930,
7.908240,
7.793654,
7.681127,
7.570614,
7.462072,
7.355461,
7.250737,
7.147863,
7.046798,
6.947505,
6.849947,
6.754088,
6.659892,
6.620023,
#ENDOFDATA   : End Of Data and File

File: eZ.msa
#FORMAT      : EMSA/MAS Spectral Data File
#VERSION     : 1.0
#DATE        :
#TIME        :
#OWNER       :
#NPOINTS     : 2048
#NCOLUMNS    : 1
#DATATYPE    : Y
#SIGNALTYPE  : EELS
#XPERCHAN    : 1.0
#OFFSET      : -0.0
#XLABEL      : x
#XUNITS      :
#COMMENT     : File created by HyperSpy version 1.3
#TITLE       : singleframeZL_1D_0.05 1024 channels extrapolated
#SPECTRUM    : Spectral Data Starts Here
34,
4.000000,
13,
36,
26,
23,
32,
3.000000,
26,
18,
1.000000,
29,
18,
11,
14,
5.000000,
5.000000,
14,
-8.000000,
-17,
40,
24,
18,
39,
10,
0.000000,
14,
-1.000000,
-4.000000,
-6.000000,
20,
1.000000,
21,
-1.000000,
30,
-1.000000,
9.000000,
-11,
0.000000,
15,
10,
19,
21,
20,
16,
17,
1.000000,
15,
20,
18,
29,
46,
40,
33,
43,
62,
53,
67,
102,
123,
175,
273,
440,
947,
2609,
9053,
29175,
48909,
27510,
6087,
1612,
675,
373,
234,
149,
132,
74,
66,
48,
55,
37,
35,
44,
37,
17,
17,
34,
-4.000000,
24,
13,
40,
4.000000,
-9.000000,
28,
23,
-1.000000,
23,
41,
17,
33,
-11,
-5.000000,
10,
21,
14,
13,
12,
3.000000,
10,
7.000000,
15,
-4.000000,
14,
15,
27,
32,
22,
6.000000,
18,
27,
15,
8.000000,
8.000000,
15,
15,
6.000000,
13,
-8.000000,
16,
29,
1.000000,
-3.000000,
35,
11,
28,
4.000000,
20,
19,
43,
14,
1.000000,
33,
18,
13,
24,
-15,
8.000000,
11,
11,
11,
11,
11,
11,
11,
11,
11,
11,
11,
11,
11,
11,
11,
11,
11,
11,
11,
11,
11,
11,
11,
11,
11,
11,
11,
11,
11,
11,
11,
11,
11,
11,
11,
11,
11,
11,
11,
11,
11,
11,
11,
11,
11,
11,
11,
11,
11,
11,
11,
11,
11,
11,
11,
11,
11,
11,
11,
11,
11,
11,
11,
11,
11,
11,
11,
11,
11,
11,
11,
11,
11,
11,
11,
11,
11,
11,
11,
11,
11,
11,
11,
11,
11,
11,
11,
11,
11,
11,
11,
11,
11,
11,
11,
11,
11,
11,
11,
11,
11,
11,
11,
11,
11,
11,
11,
11,
11,
11,
11,
11,
11,
11,
11,
11,
11,
11,
11,
11,
11,
11,
11,
11,
11,
11,
11,
11,
11,
11,
11,
11,
11,
11,
11,
11,
11,
11,
11,
11,
11,
11,
11,
11,
11,
11,
11,
#ENDOFDATA   : End Of Data and File